stair.thisTrialN,stair.stepSize,stair.intensity,thisRow.t,notes,trial.started,fixation.started,grating.started,key_resp.started,fixation.stopped,grating.stopped,trial.stopped,corrAns,tilt,key_resp.corr,stair.response,key_resp.rt,participant,session,date,expName,psychopyVersion,frameRate,expStart
0,2,5,0.0450895,,0.037123791000340134,0.0450895,0.5029958749946672,0.5029958749946672,0.5426510830002371,0.7928882909909589,1.4664177499944344,right,5,1,1,0.9215344170079334,576925,001,2024-09-12_21h19.21.850,adaptive_staircase,2024.1.5,None,2024-09-12 21h19.26.489753 +0530
1,2,3,1.4715207909903256,,1.4665952079958515,1.4715207909903256,1.9595902079890948,1.9595902079890948,1.9595902079890948,2.2558924579934683,2.725833790987963,right,3,1,1,0.7593100829981267,576925,001,2024-09-12_21h19.21.850,adaptive_staircase,2024.1.5,None,2024-09-12 21h19.26.489753 +0530
2,1,1,2.751065958000254,,2.7260164159961278,2.751065958000254,3.2224938750005094,3.2224938750005094,3.242885583,3.5093099160003476,3.9444988329923945,right,1,0,0,0.7194098340114579,576925,001,2024-09-12_21h19.21.850,adaptive_staircase,2024.1.5,None,2024-09-12 21h19.26.489753 +0530
3,1,2,3.955428540997673,,3.944630040990887,3.955428540997673,4.439060707998578,4.439060707998578,4.443026790992008,4.726868207988446,4.957569165999303,left,-2,1,1,0.5108765000040876,576925,001,2024-09-12_21h19.21.850,adaptive_staircase,2024.1.5,None,2024-09-12 21h19.26.489753 +0530
4,1,2,4.965951082995161,,4.957686290988931,4.965951082995161,5.455996333,5.455996333,5.460369874999742,5.743010332997073,5.791521415987518,right,2,1,1,0.3250262919900706,576925,001,2024-09-12_21h19.21.850,adaptive_staircase,2024.1.5,None,2024-09-12 21h19.26.489753 +0530
5,1,2,5.7999695829930715,,5.791668790989206,5.7999695829930715,6.289358832989819,6.289358832989819,6.293617707997328,6.576409457993577,6.645660290989326,right,2,1,1,0.3536351660004584,576925,001,2024-09-12_21h19.21.850,adaptive_staircase,2024.1.5,None,2024-09-12 21h19.26.489753 +0530
6,1,1,6.655609915993409,,6.645789749993128,6.655609915993409,7.143458291,7.143458291,7.143458291,7.4396184159995755,7.591520874993876,left,-1,1,1,0.4357869999948889,576925,001,2024-09-12_21h19.21.850,adaptive_staircase,2024.1.5,None,2024-09-12 21h19.26.489753 +0530
7,1,1,7.600245958,,7.591662915991037,7.600245958,8.089415457987343,8.089415457987343,8.093762582997442,8.375668207998388,8.508028165990254,left,-1,1,1,0.4043786249967525,576925,001,2024-09-12_21h19.21.850,adaptive_staircase,2024.1.5,None,2024-09-12 21h19.26.489753 +0530
8,0.5,1,8.51620325,,8.508176582996384,8.51620325,9.006225957986317,9.006225957986317,9.010546708,9.293326207989594,9.425032916,left,-1,0,0,0.414916,576925,001,2024-09-12_21h19.21.850,adaptive_staircase,2024.1.5,None,2024-09-12 21h19.26.489753 +0530
9,0.5,1.5,9.433259749988792,,9.425204540995765,9.433259749988792,9.922783874993911,9.922783874993911,9.926906915992731,10.210499665990938,10.324989665998146,right,1.5,0,0,0.39506554199033417,576925,001,2024-09-12_21h19.21.850,adaptive_staircase,2024.1.5,None,2024-09-12 21h19.26.489753 +0530
10,0.5,2,10.333268249989487,,10.325131833000341,10.333268249989487,10.822851582997828,10.822851582997828,10.826725915991119,11.109548624997842,11.424912040994968,right,2,1,1,0.5941323330043815,576925,001,2024-09-12_21h19.21.850,adaptive_staircase,2024.1.5,None,2024-09-12 21h19.26.489753 +0530
11,0.5,2,11.433304582998971,,11.425058374996297,11.433304582998971,11.92292145799729,11.92292145799729,11.927313499996671,12.210784040988074,12.358305707995896,right,2,1,1,0.42288958399149124,576925,001,2024-09-12_21h19.21.850,adaptive_staircase,2024.1.5,None,2024-09-12 21h19.26.489753 +0530
12,0.5,2,12.367438749992289,,12.358467082987772,12.367438749992289,12.856216832995415,12.856216832995415,12.860372499999357,13.143330165999942,13.295444165996742,right,2,0,0,0.43555933400057256,576925,001,2024-09-12_21h19.21.850,adaptive_staircase,2024.1.5,None,2024-09-12 21h19.26.489753 +0530
13,0.5,2.5,13.305919082995388,,13.295603249993292,13.305919082995388,13.794053499994334,13.794053499994334,13.794053499994334,14.089860665990273,14.158319582988042,left,-2.5,1,1,0.36129550001351163,576925,001,2024-09-12_21h19.21.850,adaptive_staircase,2024.1.5,None,2024-09-12 21h19.26.489753 +0530
14,0.5,2.5,14.163768290993175,,14.158456499993918,14.163768290993175,14.656401040992932,14.656401040992932,14.660745207991567,14.943968374995166,15.124920207992545,right,2.5,1,1,0.46347829200385604,576925,001,2024-09-12_21h19.21.850,adaptive_staircase,2024.1.5,None,2024-09-12 21h19.26.489753 +0530
15,0.5,2.5,15.133003749986528,,15.125054457996157,15.133003749986528,15.623181707996991,15.623181707996991,15.627401124991593,15.910362208000151,16.14172783,right,2.5,1,1,0.5111313749948749,576925,001,2024-09-12_21h19.21.850,adaptive_staircase,2024.1.5,None,2024-09-12 21h19.26.489753 +0530
16,0.5,2,16.15026112,,16.141884707991267,16.15026112,16.6397095,16.6397095,16.644220249989303,16.926372957997955,16.941877416000352,right,2,1,1,0.2975564160005888,576925,001,2024-09-12_21h19.21.850,adaptive_staircase,2024.1.5,None,2024-09-12 21h19.26.489753 +0530
17,0.5,2,16.950352832995122,,16.94203700000071,16.950352832995122,17.439819624996744,17.439819624996744,17.44410241598962,17.726779665987124,17.775347499991767,right,2,1,1,0.3269499169982737,576925,001,2024-09-12_21h19.21.850,adaptive_staircase,2024.1.5,None,2024-09-12 21h19.26.489753 +0530
18,0.5,2,17.78343899999163,,17.77546654098842,17.78343899999163,18.273326707989327,18.273326707989327,18.27777599998808,18.56056762499793,18.562086249992717,right,2,1,1,0.28635633300291374,576925,001,2024-09-12_21h19.21.850,adaptive_staircase,2024.1.5,None,2024-09-12 21h19.26.489753 +0530
19,0.5,1.5,18.57324279099703,,18.562204957997892,18.57324279099703,19.06065224998747,19.06065224998747,19.06065224998747,,19.291653082997072,left,-1.5,0,0,0.22257804201217368,576925,001,2024-09-12_21h19.21.850,adaptive_staircase,2024.1.5,None,2024-09-12 21h19.26.489753 +0530
20,0.5,2,19.30000854098762,,19.291795290992013,19.30000854098762,19.790090040987707,19.790090040987707,19.794702125000185,20.07686395799101,20.141895082997507,left,-2,0,0,0.3389629169978434,576925,001,2024-09-12_21h19.21.850,adaptive_staircase,2024.1.5,None,2024-09-12 21h19.26.489753 +0530
21,0.5,2.5,20.150513,,20.142044457999873,20.150513,20.63979695799935,20.63979695799935,20.643889082988608,20.927008165992447,21.195708582992665,right,2.5,1,1,0.552933375,576925,001,2024-09-12_21h19.21.850,adaptive_staircase,2024.1.5,None,2024-09-12 21h19.26.489753 +0530
22,0.5,2.5,21.206441124988487,,21.195826582988957,21.206441124988487,21.69411983298778,21.69411983298778,21.69411983298778,21.990261457991437,22.208636790994206,right,2.5,1,1,0.5020650420046877,576925,001,2024-09-12_21h19.21.850,adaptive_staircase,2024.1.5,None,2024-09-12 21h19.26.489753 +0530
23,0.5,2.5,22.217244957995717,,22.208787749987096,22.217244957995717,22.706807707989356,22.706807707989356,22.711050165991765,22.993116915997234,23.25882812499185,left,-2.5,1,1,0.5481921659957152,576925,001,2024-09-12_21h19.21.850,adaptive_staircase,2024.1.5,None,2024-09-12 21h19.26.489753 +0530
24,0.5,2,23.266943832990364,,23.25898120799684,23.266943832990364,23.756838832996436,23.756838832996436,23.761089999999967,24.043629040999804,24.51183212499018,right,2,1,1,0.7525181670062011,576925,001,2024-09-12_21h19.21.850,adaptive_staircase,2024.1.5,None,2024-09-12 21h19.26.489753 +0530
25,0.5,2,24.523578582986374,,24.511953875000472,24.523578582986374,25.006937499987544,25.006937499987544,25.011180915986188,25.294409957990865,25.345720790995983,right,2,0,0,0.3366620419983519,576925,001,2024-09-12_21h19.21.850,adaptive_staircase,2024.1.5,None,2024-09-12 21h19.26.489753 +0530
26,0.5,2.5,25.35666704099276,,25.345853374994476,25.35666704099276,25.840291249987786,25.840291249987786,25.84460608298832,26.127514165986213,26.55878195799596,right,2.5,1,1,0.7061003330018139,576925,001,2024-09-12_21h19.21.850,adaptive_staircase,2024.1.5,None,2024-09-12 21h19.26.489753 +0530
27,0.5,2.5,26.56787354098924,,26.558950332997483,26.56787354098924,27.057067540998105,27.057067540998105,27.06147787498776,27.343731082990416,27.56388312499621,right,2.5,0,0,0.5042494169902056,576925,001,2024-09-12_21h19.21.850,adaptive_staircase,2024.1.5,None,2024-09-12 21h19.26.489753 +0530
28,0.5,3,27.57365745799325,,27.56404429099348,27.57365745799325,28.061037749997922,28.061037749997922,28.061037749997922,28.357140749998507,28.79233799999929,right,3,1,1,0.7221103750052862,576925,001,2024-09-12_21h19.21.850,adaptive_staircase,2024.1.5,None,2024-09-12 21h19.26.489753 +0530
29,0.5,3,28.800650040997425,,28.792487,28.800650040997425,29.29050337499939,29.29050337499939,29.29478549999476,29.577184874986415,29.759263332991395,left,-3,1,1,0.4588965000002645,576925,001,2024-09-12_21h19.21.850,adaptive_staircase,2024.1.5,None,2024-09-12 21h19.26.489753 +0530
30,0.5,3,29.767627957990044,,29.75940987,29.767627957990044,30.257043040997814,30.257043040997814,30.26125020798645,30.544095416000346,30.69122504099505,right,3,1,1,0.4208580419945065,576925,001,2024-09-12_21h19.21.850,adaptive_staircase,2024.1.5,None,2024-09-12 21h19.26.489753 +0530
31,0.5,2.5,30.696326874996885,,30.69135104099405,30.696326874996885,31.179921082992223,31.179921082992223,31.19054412499827,31.477546374997473,31.862925582987373,right,2.5,1,1,0.6809445409890031,576925,001,2024-09-12_21h19.21.850,adaptive_staircase,2024.1.5,None,2024-09-12 21h19.26.489753 +0530
32,0.5,2.5,31.873505790994386,,31.863058207993163,31.873505790994386,32.361583207995864,32.361583207995864,32.361583207995864,32.65760304,32.75906287498947,left,-2.5,1,1,0.39198229101020843,576925,001,2024-09-12_21h19.21.850,adaptive_staircase,2024.1.5,None,2024-09-12 21h19.26.489753 +0530
33,0.5,2.5,32.76745470799506,,32.75920629,32.76745470799506,33.25721724999312,33.25721724999312,33.261513416000525,33.54485254098836,33.74650208299863,left,-2.5,1,1,0.48576562499511056,576925,001,2024-09-12_21h19.21.850,adaptive_staircase,2024.1.5,None,2024-09-12 21h19.26.489753 +0530
34,0.5,2,33.769167415986885,,33.74665029,33.769167415986885,34.25286891599535,34.25286891599535,34.26957967,34.54380741599016,34.74209762499959,right,2,1,1,0.48282120800286066,576925,001,2024-09-12_21h19.21.850,adaptive_staircase,2024.1.5,None,2024-09-12 21h19.26.489753 +0530
35,0.5,2,34.75036958299461,,34.74222654099867,34.75036958299461,35.240684749995125,35.240684749995125,35.24560658299015,35.52760924999893,35.75971008298802,right,2,1,1,0.5046246669953689,576925,001,2024-09-12_21h19.21.850,adaptive_staircase,2024.1.5,None,2024-09-12 21h19.26.489753 +0530
36,0.5,2,35.76907979098905,,35.759883124992484,35.76907979098905,36.257391582999844,36.257391582999844,36.26165783299075,36.54419304098701,36.859292207998806,left,-2,1,1,0.5979249170050025,576925,001,2024-09-12_21h19.21.850,adaptive_staircase,2024.1.5,None,2024-09-12 21h19.26.489753 +0530
37,0.5,1.5,36.867940540993004,,36.85945120798715,36.867940540993004,37.35744874998636,37.35744874998636,37.36176799998793,37.643902207986685,37.759313874994405,left,-1.5,0,0,0.3979097499977797,576925,001,2024-09-12_21h19.21.850,adaptive_staircase,2024.1.5,None,2024-09-12 21h19.26.489753 +0530
38,0.5,2,37.76437924998754,,37.759463165988564,37.76437924998754,38.25698733299214,38.25698733299214,38.26181349999388,38.544026582996594,38.80989517,right,2,1,1,0.5395850839995546,576925,001,2024-09-12_21h19.21.850,adaptive_staircase,2024.1.5,None,2024-09-12 21h19.26.489753 +0530
39,0.5,2,38.819441832994926,,38.81013787499978,38.819441832994926,39.34068483299052,39.34068483299052,39.34068483299052,39.62734633299988,40.030911415989976,right,2,1,1,0.6875289169984171,576925,001,2024-09-12_21h19.21.850,adaptive_staircase,2024.1.5,None,2024-09-12 21h19.26.489753 +0530
40,0.5,2,40.04053087499051,,40.03107179098879,40.04053087499051,40.52818154099805,40.52818154099805,40.52818154099805,40.82426937499258,41.05968495798879,left,-2,1,1,0.5272818329976872,576925,001,2024-09-12_21h19.21.850,adaptive_staircase,2024.1.5,None,2024-09-12 21h19.26.489753 +0530
41,0.5,1.5,41.068290707989945,,41.059867915988434,41.068290707989945,41.557689124994795,41.557689124994795,41.561893374993815,41.844792915988364,42.07646733299771,left,-1.5,1,1,0.509933875,576925,001,2024-09-12_21h19.21.850,adaptive_staircase,2024.1.5,None,2024-09-12 21h19.26.489753 +0530
42,0.5,1.5,42.084616957989056,,42.076619125000434,42.084616957989056,42.57447974999377,42.57447974999377,42.57881749999069,42.861250582995126,43.07991958298953,right,1.5,1,1,0.5024769580049906,576925,001,2024-09-12_21h19.21.850,adaptive_staircase,2024.1.5,None,2024-09-12 21h19.26.489753 +0530
43,0.5,1.5,43.09086008298618,,43.08004349999828,43.09086008298618,43.57842895798967,43.57842895798967,43.57842895798967,,43.83047974998772,right,1.5,1,1,0.24976020900066942,576925,001,2024-09-12_21h19.21.850,adaptive_staircase,2024.1.5,None,2024-09-12 21h19.26.489753 +0530
44,0.5,1,43.84064124998986,,43.830610290999175,43.84064124998986,44.32868924998911,44.32868924998911,44.32868924998911,,44.525281832990004,right,1,1,1,0.18389749999914784,576925,001,2024-09-12_21h19.21.850,adaptive_staircase,2024.1.5,None,2024-09-12 21h19.26.489753 +0530
45,0.5,1,44.530354832997546,,44.525426457999856,44.530354832997546,45.013691457992536,45.013691457992536,45.024557707991335,,45.080029165997985,right,1,1,1,0.063815916,576925,001,2024-09-12_21h19.21.850,adaptive_staircase,2024.1.5,None,2024-09-12 21h19.26.489753 +0530
46,0.5,1,45.09093666599074,,45.08015066599182,45.09093666599074,45.57438229098625,45.57438229098625,45.57867508298659,45.861937707988545,46.05979449998995,right,1,1,1,0.47514783398946747,576925,001,2024-09-12_21h19.21.850,adaptive_staircase,2024.1.5,None,2024-09-12 21h19.26.489753 +0530
47,0.5,1,46.06853904099262,,46.05996441599564,46.06853904099262,46.55796062499576,46.55796062499576,46.562241166000604,46.84436187498795,46.863045249992865,left,-1,0,0,0.3026595410046866,576925,001,2024-09-12_21h19.21.850,adaptive_staircase,2024.1.5,None,2024-09-12 21h19.26.489753 +0530
48,0.5,1.5,46.874690165990614,,46.86318708,46.874690165990614,47.35800579100032,47.35800579100032,47.36220154099283,47.645146124996245,47.713077749998774,right,1.5,1,1,0.35185249999631196,576925,001,2024-09-12_21h19.21.850,adaptive_staircase,2024.1.5,None,2024-09-12 21h19.26.489753 +0530
49,0.5,1.5,47.72453783299716,,47.71319437499915,47.72453783299716,48.207909832999576,48.207909832999576,48.21214841598703,48.494800290995045,48.71003466598631,right,1.5,1,1,0.49842308400548063,576925,001,2024-09-12_21h19.21.850,adaptive_staircase,2024.1.5,None,2024-09-12 21h19.26.489753 +0530
50,0.5,1.5,48.71897837499273,,48.710180374997435,48.71897837499273,49.20803149999119,49.20803149999119,49.21230837499024,49.49549666600069,49.76060129099642,right,1.5,1,1,0.5486435829952825,576925,001,2024-09-12_21h19.21.850,adaptive_staircase,2024.1.5,None,2024-09-12 21h19.26.489753 +0530
51,0.5,1,49.76948733298923,,49.76077649999934,49.76948733298923,50.25809862499591,50.25809862499591,50.26247999999032,50.54514487499546,51.07668966599158,left,-1,0,0,0.8070686670107534,576925,001,2024-09-12_21h19.21.850,adaptive_staircase,2024.1.5,None,2024-09-12 21h19.26.489753 +0530
52,0.5,1.5,51.08549929098808,,51.076850457990076,51.08549929098808,51.57484920798743,51.57484920798743,51.57922929099004,51.862622124986956,52.14747812499991,left,-1.5,0,0,0.5692841249983758,576925,001,2024-09-12_21h19.21.850,adaptive_staircase,2024.1.5,None,2024-09-12 21h19.26.489753 +0530
53,0.5,2,52.15770245798922,,52.14760316599859,52.15770245798922,52.64523337499122,52.64523337499122,52.64523337499122,52.94169987499481,53.19351854099659,right,2,1,1,0.5429447499918751,576925,001,2024-09-12_21h19.21.850,adaptive_staircase,2024.1.5,None,2024-09-12 21h19.26.489753 +0530
54,0.5,2,53.20175995799946,,53.19368291599676,53.20175995799946,53.69157587499649,53.69157587499649,53.69586108298972,53.978615207990515,54.76026662498771,left,-2,1,1,1.057324499997776,576925,001,2024-09-12_21h19.21.850,adaptive_staircase,2024.1.5,None,2024-09-12 21h19.26.489753 +0530
55,0.5,2,54.76841508298821,,54.76041183299094,54.76841508298821,55.25835299999744,55.25835299999744,55.26270145799208,55.54513224998664,55.72806108299119,right,2,1,1,0.45949212499544956,576925,001,2024-09-12_21h19.21.850,adaptive_staircase,2024.1.5,None,2024-09-12 21h19.26.489753 +0530
56,0.5,1.5,55.73678979098622,,55.728233624991844,55.73678979098622,56.225031333000516,56.225031333000516,56.22923629099387,56.511801790999016,56.847435124989715,left,-1.5,1,1,0.6203424579871353,576925,001,2024-09-12_21h19.21.850,adaptive_staircase,2024.1.5,None,2024-09-12 21h19.26.489753 +0530
57,0.5,1.5,56.85815095799626,,56.84755608299747,56.85815095799626,57.34167974999582,57.34167974999582,57.34662133299571,57.628653583000414,57.780726332988706,left,-1.5,1,1,0.4368046250019688,576925,001,2024-09-12_21h19.21.850,adaptive_staircase,2024.1.5,None,2024-09-12 21h19.26.489753 +0530
58,0.5,1.5,57.791528999994625,,57.78084645798663,57.791528999994625,58.279076957987854,58.279076957987854,58.279076957987854,58.57525004098716,58.71413242,left,-1.5,1,1,0.43178441700001713,576925,001,2024-09-12_21h19.21.850,adaptive_staircase,2024.1.5,None,2024-09-12 21h19.26.489753 +0530
59,0.5,1,58.72488916599832,,58.71425383299356,58.72488916599832,59.21248912499868,59.21248912499868,59.21248912499868,59.508611249999376,59.527216624992434,left,-1,1,1,0.3109149589872686,576925,001,2024-09-12_21h19.21.850,adaptive_staircase,2024.1.5,None,2024-09-12 21h19.26.489753 +0530
60,0.5,1,59.53538704098901,,59.52736374999222,59.53538704098901,60.025284249990364,60.025284249990364,60.029638874999364,60.31856624998909,60.31072137498995,right,1,0,0,0.2796763749938691,576925,001,2024-09-12_21h19.21.850,adaptive_staircase,2024.1.5,None,2024-09-12 21h19.26.489753 +0530
61,0.5,1.5,60.31856624998909,,60.31084183,60.31856624998909,60.80855016599526,60.80855016599526,60.81276024998806,61.09555208298843,61.14420312498987,left,-1.5,1,1,0.32178720900265034,576925,001,2024-09-12_21h19.21.850,adaptive_staircase,2024.1.5,None,2024-09-12 21h19.26.489753 +0530
62,0.5,1.5,61.153175125000416,,61.144374915995286,61.153175125000416,61.64168616599636,61.64168616599636,61.645844040991506,,61.84364454098977,right,1.5,0,0,0.19748204099596478,576925,001,2024-09-12_21h19.21.850,adaptive_staircase,2024.1.5,None,2024-09-12 21h19.26.489753 +0530
63,0.5,2,61.85173583299911,,61.843761332987924,61.85173583299911,62.34203304098628,62.34203304098628,62.34625324999797,62.62888525000017,62.660841332995915,right,2,0,0,0.31338791699090507,576925,001,2024-09-12_21h19.21.850,adaptive_staircase,2024.1.5,None,2024-09-12 21h19.26.489753 +0530
64,0.5,2.5,62.66870179098623,,62.66099270799896,62.66870179098623,63.158736165991286,63.158736165991286,63.162882707998506,63.44536124999286,63.610982832993614,left,-2.5,1,1,0.4400912499986589,576925,001,2024-09-12_21h19.21.850,adaptive_staircase,2024.1.5,None,2024-09-12 21h19.26.489753 +0530
65,0.5,2.5,63.619304707986885,,63.61112937500002,63.619304707986885,64.10873504099436,64.10873504099436,64.11296149999544,64.39607083,64.67745966599614,right,2.5,1,1,0.5609791250026319,576925,001,2024-09-12_21h19.21.850,adaptive_staircase,2024.1.5,None,2024-09-12 21h19.26.489753 +0530
66,0.5,2.5,64.68571941599657,,64.67758012498962,64.68571941599657,65.17546970798867,65.17546970798867,65.17978879099246,65.46225087498897,65.59399333,left,-2.5,1,1,0.408487167,576925,001,2024-09-12_21h19.21.850,adaptive_staircase,2024.1.5,None,2024-09-12 21h19.26.489753 +0530
67,0.5,2,65.60250879099476,,65.59415383299347,65.60250879099476,66.09222570799466,66.09222570799466,66.09702004099381,,66.36078412499046,left,-2,1,1,0.2555247499985853,576925,001,2024-09-12_21h19.21.850,adaptive_staircase,2024.1.5,None,2024-09-12 21h19.26.489753 +0530
68,0.5,2,66.36911599998712,,66.36094083299395,66.36911599998712,66.85880492,66.85880492,66.86309829099628,,67.00995149998926,left,-2,1,1,0.13845425000181422,576925,001,2024-09-12_21h19.21.850,adaptive_staircase,2024.1.5,None,2024-09-12 21h19.26.489753 +0530
69,0.5,2,67.01515333299176,,67.01007020799443,67.01515333299176,67.50891208299436,67.50891208299436,67.51324666599976,,67.74824787498801,left,-2,1,1,0.2373649170040153,576925,001,2024-09-12_21h19.21.850,adaptive_staircase,2024.1.5,None,2024-09-12 21h19.26.489753 +0530
70,0.5,1.5,67.75840091599093,,67.74836895799672,67.75840091599093,68.24736483299057,68.24736483299057,68.24736483299057,,68.41062454099301,right,1.5,0,0,0.1520657079963712,576925,001,2024-09-12_21h19.21.850,adaptive_staircase,2024.1.5,None,2024-09-12 21h19.26.489753 +0530
71,0.5,2,68.41877383299288,,68.41076512499421,68.41877383299288,68.90884858299978,68.90884858299978,68.91311320799286,69.19577970799583,69.27750524999283,left,-2,1,1,0.35884975000226405,576925,001,2024-09-12_21h19.21.850,adaptive_staircase,2024.1.5,None,2024-09-12 21h19.26.489753 +0530
72,0.5,2,69.28581324999686,,69.27765249999356,69.28581324999686,69.77563037499203,69.77563037499203,69.77982549999433,,70.03138920798665,left,-2,1,1,0.2520446249982342,576925,001,2024-09-12_21h19.21.850,adaptive_staircase,2024.1.5,None,2024-09-12 21h19.26.489753 +0530
73,0.5,2,70.04240575,,70.03152349998709,70.04240575,70.52967408299446,70.52967408299446,70.52967408299446,70.82564087498758,71.07762420798826,left,-2,1,1,0.5357897500070976,576925,001,2024-09-12_21h19.21.850,adaptive_staircase,2024.1.5,None,2024-09-12 21h19.26.489753 +0530
74,0.5,1.5,71.08620962499117,,71.07779967,71.08620962499117,71.57574770798965,71.57574770798965,71.58005562498874,71.86281374999089,71.96506204099569,left,-1.5,1,1,0.38666058400121983,576925,001,2024-09-12_21h19.21.850,adaptive_staircase,2024.1.5,None,2024-09-12 21h19.26.489753 +0530
75,0.5,1.5,71.97540683299303,,71.96518266599742,71.97540683299303,72.45920108,72.45920108,72.46408716599399,72.74581899998884,72.88195208300021,left,-1.5,1,1,0.4206788330047857,576925,001,2024-09-12_21h19.21.850,adaptive_staircase,2024.1.5,None,2024-09-12 21h19.26.489753 +0530
76,0.5,1.5,72.89205729099922,,72.88207917,72.89205729099922,73.38096816599136,73.38096816599136,73.38096816599136,73.67592683299154,74.71606262,right,1.5,0,0,1.3305702920042677,576925,001,2024-09-12_21h19.21.850,adaptive_staircase,2024.1.5,None,2024-09-12 21h19.26.489753 +0530
77,0.5,2,74.72542462499405,,74.71621804099414,74.72542462499405,75.21372333,75.21372333,75.21372333,75.50936733,75.82816524998634,left,-2,1,1,0.6034272909892024,576925,001,2024-09-12_21h19.21.850,adaptive_staircase,2024.1.5,None,2024-09-12 21h19.26.489753 +0530
78,0.5,2,75.83702083298704,,75.82831454099505,75.83702083298704,76.32601745799184,76.32601745799184,76.33018812499358,76.61301174999971,76.68126004099031,left,-2,1,1,0.35210758399625774,576925,001,2024-09-12_21h19.21.850,adaptive_staircase,2024.1.5,None,2024-09-12 21h19.26.489753 +0530
79,0.5,2,76.69258867,,76.68138583299879,76.69258867,77.18004024999391,77.18004024999391,77.18004024999391,77.47605716598628,77.52782829100033,left,-2,1,1,0.33981983400008176,576925,001,2024-09-12_21h19.21.850,adaptive_staircase,2024.1.5,None,2024-09-12 21h19.26.489753 +0530
80,0.5,1.5,77.53612512499967,,77.52799783,77.53612512499967,78.02608229099133,78.02608229099133,78.03028479099157,78.31285991599725,78.42826183298894,left,-1.5,1,1,0.3924183330091182,576925,001,2024-09-12_21h19.21.850,adaptive_staircase,2024.1.5,None,2024-09-12 21h19.26.489753 +0530
81,0.5,1.5,78.43662324998877,,78.42840970799443,78.43662324998877,78.92617442,78.92617442,78.93038296,79.21327154099708,79.27854329098773,left,-1.5,1,1,0.3424097919923952,576925,001,2024-09-12_21h19.21.850,adaptive_staircase,2024.1.5,None,2024-09-12 21h19.26.489753 +0530
82,0.5,1.5,79.28780029100017,,79.27871970798878,79.28780029100017,79.77614342,79.77614342,79.78037508299167,80.06306645799486,80.11214804,right,1.5,0,0,0.324661084,576925,001,2024-09-12_21h19.21.850,adaptive_staircase,2024.1.5,None,2024-09-12 21h19.26.489753 +0530
83,0.5,2,80.12079354099114,,80.11232554099115,80.12079354099114,80.60940345798736,80.60940345798736,80.61351612499857,80.89595529,81.14552770799492,left,-2,1,1,0.5291284999984782,576925,001,2024-09-12_21h19.21.850,adaptive_staircase,2024.1.5,None,2024-09-12 21h19.26.489753 +0530
84,0.5,2,81.15433070799918,,81.14569933299208,81.15433070799918,81.64269920799416,81.64269920799416,81.64729512498889,81.92969433299731,81.99816329099122,left,-2,1,1,0.35228312500112224,576925,001,2024-09-12_21h19.21.850,adaptive_staircase,2024.1.5,None,2024-09-12 21h19.26.489753 +0530
85,0.5,2,82.00931574999413,,81.99831662498764,82.00931574999413,82.49732012,82.49732012,82.49732012,82.79308408299403,82.92815820800024,left,-2,1,1,0.41797287500230595,576925,001,2024-09-12_21h19.21.850,adaptive_staircase,2024.1.5,None,2024-09-12 21h19.26.489753 +0530
86,0.5,1.5,82.93639225,,82.92830616599531,82.93639225,83.42628316598712,83.42628316598712,83.43051079,83.71326945799228,83.84587824999471,left,-1.5,1,1,0.4052158749982482,576925,001,2024-09-12_21h19.21.850,adaptive_staircase,2024.1.5,None,2024-09-12 21h19.26.489753 +0530
87,0.5,1.5,83.85435417,,83.84603695799888,83.85435417,84.34295312500035,84.34295312500035,84.34719862499333,84.62979341599566,84.92845637499704,right,1.5,1,1,0.5763517909945222,576925,001,2024-09-12_21h19.21.850,adaptive_staircase,2024.1.5,None,2024-09-12 21h19.26.489753 +0530
88,0.5,1.5,84.93701537499146,,84.92860199999996,84.93701537499146,85.42640625000058,85.42640625000058,85.43051612499403,85.71371291599644,85.86177004,left,-1.5,1,1,0.4209770410088822,576925,001,2024-09-12_21h19.21.850,adaptive_staircase,2024.1.5,None,2024-09-12 21h19.26.489753 +0530
89,0.5,1,85.86978445798741,,85.86192270799074,85.86978445798741,86.35965620799107,86.35965620799107,86.36386516600032,86.64630733299418,87.54816816598759,right,1,0,0,1.1862879170075757,576925,001,2024-09-12_21h19.21.850,adaptive_staircase,2024.1.5,None,2024-09-12 21h19.26.489753 +0530
90,0.5,1.5,87.55964758299524,,87.54829162498936,87.55964758299524,88.04309208299674,88.04309208299674,88.04725333298848,88.33029416599311,88.49532608299342,left,-1.5,1,1,0.44271120900521055,576925,001,2024-09-12_21h19.21.850,adaptive_staircase,2024.1.5,None,2024-09-12 21h19.26.489753 +0530
91,0.5,1.5,88.50377095799195,,88.49549674999435,88.50377095799195,88.99331470798643,88.99331470798643,88.99758874998952,89.28032420799718,89.67855829099426,right,1.5,1,1,0.6766674590035109,576925,001,2024-09-12_21h19.21.850,adaptive_staircase,2024.1.5,None,2024-09-12 21h19.26.489753 +0530
92,0.5,1.5,89.6871595,,89.67870437499369,89.6871595,90.17662846,90.17662846,90.18080449999252,90.46366341599787,90.71201191599539,right,1.5,1,1,0.5268491669994546,576925,001,2024-09-12_21h19.21.850,adaptive_staircase,2024.1.5,None,2024-09-12 21h19.26.489753 +0530
93,0.5,1,90.72084899999027,,90.71216279099463,90.72084899999027,91.20996100000048,91.20996100000048,91.21423012499872,91.49681712499296,91.74600312499388,right,1,1,1,0.531328459,576925,001,2024-09-12_21h19.21.850,adaptive_staircase,2024.1.5,None,2024-09-12 21h19.26.489753 +0530
94,0.5,1,91.75529424998967,,91.74616816599155,91.75529424998967,92.24330204099533,92.24330204099533,92.24747866598773,92.53023374998884,92.74883274998865,right,1,1,1,0.5020902909891447,576925,001,2024-09-12_21h19.21.850,adaptive_staircase,2024.1.5,None,2024-09-12 21h19.26.489753 +0530
95,0.5,1,92.75985370799026,,92.74897871,92.75985370799026,93.24728079099441,93.24728079099441,93.24728079099441,93.54351987499103,93.64606654099771,right,1,1,1,0.38556837500073016,576925,001,2024-09-12_21h19.21.850,adaptive_staircase,2024.1.5,None,2024-09-12 21h19.26.489753 +0530
96,0.5,1,93.65504554,,93.64633254100045,93.65504554,94.14344204099325,94.14344204099325,94.14781708299415,,94.36227516600047,right,1,1,1,0.20813454198651016,576925,001,2024-09-12_21h19.21.850,adaptive_staircase,2024.1.5,None,2024-09-12 21h19.26.489753 +0530
97,0.5,1,94.37047066599189,,94.36241933,94.37047066599189,94.86018008299288,94.86018008299288,94.86437512499106,95.15161979099503,95.1447275,right,1,1,1,0.2797525839996524,576925,001,2024-09-12_21h19.21.850,adaptive_staircase,2024.1.5,None,2024-09-12 21h19.26.489753 +0530
98,0.5,1,95.15161979099503,,95.14488791598706,95.15161979099503,95.64355458298814,95.64355458298814,95.64984374999767,95.94381379098922,96.01558524998836,right,1,1,1,0.36880345799727365,576925,001,2024-09-12_21h19.21.850,adaptive_staircase,2024.1.5,None,2024-09-12 21h19.26.489753 +0530
99,0.5,1,96.02656054099498,,96.01587316599034,96.02656054099498,96.51370558299823,96.51370558299823,96.51370558299823,96.81025337499159,96.84928521,left,-1,0,0,0.3326055829966208,576925,001,2024-09-12_21h19.21.850,adaptive_staircase,2024.1.5,None,2024-09-12 21h19.26.489753 +0530
,,,,,,,,,,,,,,,,,,,,,,,
,,,,,,,,,,,-0.4,,,,,,,,,,,,